Folder: velazquez_lab/data/pol_curves

Note: README.md
# velazquez_lab
Code for Jessica (and Velazquez Lab)

File: K2Mo6Te8_her_ecsa_run7.txt
Ewe/V	<I>/mA	cycle number
0.202478	-0.0606609	1
0.200545	-0.055576	1
0.196923	-0.0577344	1
0.193354	-0.0587347	1
0.189739	-0.0604974	1
0.186148	-0.0605931	1
0.182595	-0.0582956	1
0.178919	-0.064059	1
0.175368	-0.0653832	1
0.171811	-0.0659761	1
0.168134	-0.0677426	1
0.164628	-0.0654894	1
0.160973	-0.0666955	1
0.157403	-0.0714219	1
0.153758	-0.0722873	1
0.15019	-0.0732052	1
0.146568	-0.0727344	1
0.142983	-0.0702739	1
0.139383	-0.0741833	1
0.135806	-0.0758872	1
0.132192	-0.0763309	1
0.12855	-0.0766954	1
0.126621	-0.0708598	1
0.126239	-0.0738337	1
0.126151	-0.0800283	1
0.131459	0.0437111	1
0.138087	0.0380373	1
0.14171	0.0438927	1
0.145315	0.0465435	1
0.148855	0.0479646	1
0.15246	0.0484261	1
0.156092	0.0479037	1
0.159691	0.0485415	1
0.163216	0.0514658	1
0.166837	0.0522819	1
0.17047	0.0523741	1
0.174036	0.0519996	1
0.177636	0.0506152	1
0.181252	0.0531197	1
0.184891	0.0542577	1
0.188437	0.0543417	1
0.192038	0.054072	1
0.195615	0.0511865	1
0.199224	0.0536924	1
0.20287	0.0550292	1
0.206459	0.0548588	1
0.210006	0.0545825	1
0.213655	0.0531293	1
0.217286	0.0532456	1
0.220897	0.0557095	1
0.224451	0.0557254	1
0.226489	0.0699072	1
0.226459	0.0606761	1
0.224379	-0.013532	2
0.220726	-0.0250098	2
0.217161	-0.0296362	2
0.213571	-0.0327785	2
0.209945	-0.0379995	2
0.206353	-0.0404173	2
0.202698	-0.0423026	2
0.199105	-0.0439131	2
0.195555	-0.0439682	2
0.191901	-0.045084	2
0.188339	-0.0492918	2
0.184727	-0.0503656	2
0.18116	-0.0518588	2
0.177575	-0.0523492	2
0.173933	-0.0514535	2
0.170342	-0.0548682	2
0.166789	-0.0573568	2
0.163173	-0.0588261	2
0.159571	-0.0593473	2
0.155954	-0.0585656	2
0.152333	-0.0593706	2
0.148788	-0.0632408	2
0.145109	-0.0639494	2
0.141616	-0.0644458	2
0.137945	-0.0646144	2
0.134361	-0.0619391	2
0.130775	-0.0655325	2
0.127656	-0.0681282	2
0.126155	-0.0810727	2
0.126159	-0.0718846	2
0.128271	0.0167217	2
0.131867	0.0319256	2
0.135503	0.0374257	2
0.139085	0.0387736	2
0.142695	0.0438368	2
0.146278	0.0469634	2
0.149869	0.0484434	2
0.153483	0.0493567	2
0.157098	0.0480656	2
0.160672	0.0488174	2
0.164366	0.0520738	2
0.167878	0.0527491	2
0.171486	0.0526302	2
0.175044	0.052326	2
0.178664	0.0506878	2
0.182277	0.0529192	2
0.185813	0.0545746	2
0.189437	0.0546202	2
0.193032	0.0541697	2
0.196661	0.0528436	2
0.200277	0.052671	2
0.203795	0.0545264	2
0.207478	0.0552788	2
0.211047	0.0550386	2
0.214644	0.0535053	2
0.218303	0.0533488	2
0.221895	0.0557729	2
0.224966	0.0575338	2
0.226371	0.0596543	2
0.226321	0.0782521	2

File: K2Mo6Te8_her_tafel_run1.txt
Ewe/V	<I>/mA
0.242982	0.000000000000000E+000
0.251916	5.62494e-05
0.246631	-0.00499156
0.239623	-0.00910569
0.232985	-0.0118634
0.226332	-0.0142033
0.219581	-0.0162669
0.212653	-0.0175835
0.206002	-0.0183434
0.199392	-0.0189045
0.19279	-0.0192582
0.185975	-0.0196528
0.179222	-0.0197623
0.172606	-0.019414
0.16599	-0.0186395
0.159329	-0.0176951
0.152823	-0.0166521
0.146081	-0.0157274
0.139365	-0.0148941
0.132702	-0.0139413
0.126033	-0.0129348
0.119292	-0.0119615
0.112797	-0.0108336
0.10612	-0.0098365
0.0993975	-0.00914336
0.0927964	-0.00849969
0.0860937	-0.00813555
0.0794742	-0.00772488
0.0727622	-0.00746908
0.0660502	-0.00741628
0.0593789	-0.00718584
0.0527658	-0.00694972
0.0461506	-0.00668512
0.0394641	-0.0064076
0.0327957	-0.0062644
0.0262114	-0.00613537
0.0195324	-0.00621809
0.0128484	-0.00637777
0.0061871	-0.00653176
-0.000502693	-0.00680139
-0.00734335	-0.00714876
-0.0139735	-0.00751848
-0.0206109	-0.00787669
-0.0272789	-0.00819236
-0.0338886	-0.00842858
-0.0405305	-0.00869799
-0.047126	-0.00899389
-0.0537819	-0.00933629
-0.0606006	-0.00985193
-0.0674032	-0.0105303
-0.0741962	-0.0105042
-0.0808694	-0.0110987
-0.0875709	-0.0116942
-0.0941785	-0.0123596
-0.100838	-0.0129892
-0.107451	-0.0136214
-0.114141	-0.0142633
-0.120783	-0.0148132
-0.127486	-0.0151061
-0.134167	-0.0157134
-0.140854	-0.0163619
-0.147479	-0.017113
-0.154056	-0.0180012
-0.160792	-0.0190331
-0.167659	-0.0202653
-0.17444	-0.0209656
-0.181011	-0.0218277
-0.187782	-0.022903
-0.194386	-0.0239794
-0.201012	-0.0254137
-0.207619	-0.0267305
-0.214386	-0.0280479
-0.220991	-0.0296255
-0.227772	-0.0313373
-0.234583	-0.0342861
-0.241423	-0.0358689
-0.248116	-0.0378798
-0.25458	-0.0398792
-0.261415	-0.0417587
-0.26807	-0.0443936
-0.274694	-0.0470872
-0.281397	-0.0500261
-0.287965	-0.052619
-0.29467	-0.0553798
-0.301365	-0.0587682
-0.308005	-0.0620831
-0.314652	-0.0664298
-0.321334	-0.0708198
-0.328053	-0.0748072
-0.334646	-0.0790043
-0.341399	-0.0832259
-0.347961	-0.0877462
-0.354678	-0.0932899
-0.361328	-0.0992735
-0.367929	-0.105095
-0.374633	-0.111811
-0.381353	-0.118949
-0.388011	-0.126485
-0.394597	-0.135811
-0.401296	-0.145182
-0.407952	-0.155947
-0.414696	-0.169108
-0.42128	-0.185092
-0.42793	-0.201864
-0.434611	-0.223202
-0.441272	-0.248115
-0.447896	-0.278566
-0.454605	-0.317554
-0.461249	-0.3654
-0.467928	-0.421847
-0.474621	-0.492561
-0.481268	-0.581897
-0.487873	-0.691748
-0.494545	-0.831767
-0.501185	-1.00647
-0.507843	-1.22121
-0.514495	-1.48297
-0.521188	-1.8022
-0.527829	-2.1642
-0.534476	-2.59966
-0.541188	-3.10461
-0.547792	-3.67228
-0.554456	-4.30165
-0.561152	-5.00528
-0.567813	-5.76231
-0.574401	-6.57591
-0.581121	-7.45113
-0.587753	-8.37068
-0.594415	-9.36888
-0.601128	-10.3979
-0.607768	-11.4825
-0.614419	-12.6249
-0.621102	-13.7784
-0.627807	-14.9997
-0.634446	-16.2833
-0.641073	-17.5499
-0.647821	-18.8949
-0.654487	-20.2388
-0.661149	-21.6104
-0.667664	-23.0236
-0.674328	-24.4318
-0.680984	-25.8873
-0.687678	-27.3495
-0.69436	-28.8171
-0.701066	-30.3182
-0.707713	-31.8441
-0.71438	-33.3873
-0.720953	-35.003
-0.727694	-36.5324
-0.734365	-38.0796
-0.740972	-39.6247
-0.747655	-41.2244
-0.7543	-42.85
-0.760952	-44.4242
-0.767572	-45.9559
-0.77426	-47.5823
-0.780944	-49.1734
-0.787621	-50.7712
-0.794287	-52.3814
-0.800865	-54.0484
-0.807549	-55.7223
-0.814224	-57.2155
-0.820913	-58.8764
-0.827477	-60.6076
-0.834197	-62.454
-0.840858	-64.1887
-0.847551	-65.6423
-0.854231	-67.3066
-0.86084	-69.1396
-0.8676	-70.9083
-0.874165	-72.582
-0.880823	-74.5641
-0.8875	-76.0974
-0.894202	-78.042
-0.899167	-79.6243
-0.899502	-79.7031