Folder: velazquez_lab/data/polarization_curves

Note: README.md
# velazquez_lab
Code for Jessica (and Velazquez Lab)

File: K2Mo6Te8_her_ecsa_run4.txt
Ewe/V	<I>/mA	cycle number
0.224128	-0.000520486	1
0.222225	-0.000853558	1
0.218925	-0.00153187	1
0.215529	-0.00199627	1
0.212147	-0.00234778	1
0.208814	-0.0026576	1
0.205417	-0.00293713	1
0.202011	-0.00318792	1
0.19869	-0.00338381	1
0.19534	-0.00369746	1
0.192015	-0.00384565	1
0.18826	-0.00451106	1
0.184401	-0.00434106	1
0.180882	-0.00441056	1
0.1775	-0.00453675	1
0.174181	-0.00465281	1
0.170792	-0.00477672	1
0.167448	-0.00496172	1
0.164088	-0.00505737	1
0.160799	-0.00516395	1
0.157384	-0.00526949	1
0.154027	-0.00543845	1
0.150681	-0.00570802	1
0.147275	-0.00562853	1
0.14398	-0.00568775	1
0.140619	-0.00582247	1
0.137271	-0.00596162	1
0.133915	-0.00607887	1
0.130541	-0.00621799	1
0.127665	-0.00632692	1
0.126464	-0.00637527	1
0.129059	-0.00221497	1
0.13313	-0.000796052	1
0.136489	-4.05302e-05	1
0.139845	0.000459273	1
0.143224	0.00092958	1
0.146537	0.00124992	1
0.149889	0.00156094	1
0.153226	0.0018525	1
0.156645	0.00208003	1
0.159986	0.00246032	1
0.163301	0.00245319	1
0.166743	0.00260838	1
0.170069	0.00276805	1
0.173413	0.00282021	1
0.176774	0.00299338	1
0.180123	0.00315154	1
0.18347	0.00323906	1
0.186833	0.003332	1
0.190184	0.00341273	1
0.193535	0.00349948	1
0.196897	0.00362138	1
0.200772	0.00408673	1
0.204676	0.00390251	1
0.20803	0.00403074	1
0.211317	0.00415949	1
0.214718	0.00428799	1
0.218131	0.00445896	1
0.221529	0.00461695	1
0.224677	0.00483159	1
0.226429	0.00407446	1
0.226153	0.00503269	1
0.224406	0.00185811	2
0.221055	0.000214563	2
0.217709	-0.000630445	2
0.2143	-0.00117239	2
0.210581	-0.00234884	2
0.206751	-0.00225137	2
0.203209	-0.00244324	2
0.199865	-0.00279989	2
0.196493	-0.0029663	2
0.193147	-0.00321019	2
0.189779	-0.00339263	2
0.186398	-0.00353848	2
0.183012	-0.00372665	2
0.179711	-0.00392055	2
0.17636	-0.00414757	2
0.172963	-0.00432623	2
0.169647	-0.00439376	2
0.166252	-0.00453282	2
0.162948	-0.00462176	2
0.159516	-0.00468811	2
0.156173	-0.00475399	2
0.152865	-0.00493416	2
0.149531	-0.00505948	2
0.146181	-0.00516383	2
0.142773	-0.00529547	2
0.139419	-0.00534637	2
0.136044	-0.00561891	2
0.132711	-0.00582505	2
0.129329	-0.00586033	2
0.127069	-0.0059421	2
0.12646	-0.00602046	2
0.129068	-0.00135893	2
0.133176	-0.000573035	2
0.136471	0.000139201	2
0.139843	0.000599723	2
0.143143	0.00105349	2
0.146543	0.00136856	2
0.149866	0.00168878	2
0.153258	0.00187838	2
0.156645	0.00209772	2
0.159968	0.00231957	2
0.163327	0.00256962	2
0.16671	0.00265042	2
0.170099	0.00273851	2
0.173375	0.00287345	2
0.176777	0.00300139	2
0.180124	0.00305182	2
0.183494	0.00315871	2
0.186836	0.00329911	2
0.190215	0.00338322	2
0.193512	0.00346446	2
0.196926	0.00354284	2
0.200265	0.00388366	2
0.203601	0.00386543	2
0.206979	0.00395852	2
0.2104	0.00406679	2
0.21366	0.00422882	2
0.217129	0.00438021	2
0.220508	0.00457642	2
0.223772	0.00470576	2
0.225876	0.00487408	2
0.226325	0.00439861	2
0.226374	0.0231987	2

File: K2Mo6Te8_her_tafel_run1_smaller.txt
Ewe/V	<I>/mA
-0.063877	-0.0101178
-0.0674032	-0.0105303
-0.0708818	-0.0101542
-0.0741962	-0.0105042
-0.0775162	-0.0107581
-0.0808694	-0.0110987
-0.0842188	-0.0114166
-0.0875709	-0.0116942
-0.0908453	-0.012077
-0.0941785	-0.0123596
-0.0974946	-0.0126563
-0.100838	-0.0129892
-0.104147	-0.0132996
-0.107451	-0.0136214
-0.110787	-0.0138984
-0.114141	-0.0142633
-0.11752	-0.0145784
-0.120783	-0.0148132
-0.124162	-0.014964
-0.127486	-0.0151061
-0.130851	-0.015402
-0.134167	-0.0157134
-0.137469	-0.0160234
-0.140854	-0.0163619
-0.144139	-0.0167361
-0.147479	-0.017113
-0.150753	-0.0174935
-0.154056	-0.0180012
-0.157433	-0.0185077
-0.160792	-0.0190331
-0.164169	-0.0196115
-0.167659	-0.0202653
-0.171076	-0.0206015
-0.17444	-0.0209656
-0.177734	-0.021374
-0.181011	-0.0218277
-0.184345	-0.02228
-0.187782	-0.022903
-0.191088	-0.0234247
-0.194386	-0.0239794
-0.197706	-0.0245809
-0.201012	-0.0254137
-0.204315	-0.0260423
-0.207619	-0.0267305
-0.211013	-0.0273936
-0.214386	-0.0280479
-0.217675	-0.0288304
-0.220991	-0.0296255
-0.224396	-0.0303815
-0.227772	-0.0313373
-0.231129	-0.032534
-0.234583	-0.0342861
-0.23818	-0.0348931
-0.241423	-0.0358689
-0.244752	-0.0369253
-0.248116	-0.0378798
-0.25136	-0.0388648
-0.25458	-0.0398792
-0.258117	-0.0409243
-0.261415	-0.0417587
-0.264691	-0.0430854
-0.26807	-0.0443936
-0.271405	-0.0457431
-0.274694	-0.0470872
-0.278046	-0.0485517
-0.281397	-0.0500261
-0.28472	-0.0513364
-0.287965	-0.052619
-0.29128	-0.0539497
-0.29467	-0.0553798
-0.298018	-0.0570508
-0.301365	-0.0587682
-0.304664	-0.0603995
-0.308005	-0.0620831
-0.311316	-0.064129
-0.314652	-0.0664298
-0.318032	-0.0687956
-0.321334	-0.0708198
-0.324706	-0.0729918
-0.328053	-0.0748072
-0.331346	-0.0766519
-0.334646	-0.0790043
-0.33801	-0.0810992
-0.341399	-0.0832259
-0.344668	-0.0853172
-0.347961	-0.0877462
-0.351353	-0.0904126
-0.354678	-0.0932899
-0.358056	-0.0962381
-0.361328	-0.0992735
-0.364631	-0.102234
-0.367929	-0.105095
-0.371322	-0.108575
-0.374633	-0.111811
-0.377982	-0.115247
-0.381353	-0.118949
-0.384618	-0.122567
-0.388011	-0.126485
-0.391348	-0.13107
-0.394597	-0.135811
-0.397974	-0.140496
-0.401296	-0.145182
-0.404604	-0.150338
-0.407952	-0.155947
-0.411323	-0.162351
-0.414696	-0.169108
-0.418002	-0.177031
-0.42128	-0.185092
-0.424554	-0.193323
-0.42793	-0.201864
-0.431245	-0.212033
-0.434611	-0.223202
-0.437928	-0.235124
-0.441272	-0.248115
-0.444572	-0.262561
-0.447896	-0.278566
-0.451245	-0.297617
-0.454605	-0.317554
-0.457894	-0.33872
-0.461249	-0.3654
-0.46456	-0.39206
-0.467928	-0.421847
-0.471252	-0.457297
-0.474621	-0.492561
-0.477939	-0.53634
-0.481268	-0.581897
-0.484502	-0.635271
-0.487873	-0.691748
-0.491199	-0.757205
-0.494545	-0.831767
-0.497892	-0.914814