Folder: velazquez_lab/data/sample_1

Note: data/sample_1/1-12-2021_K2Mo6Te8_sample1_EIS_03_PEIS_C01.txt
, Re(Z)/Ohm	-Im(Z)/Ohm	
4.6478872E+000	-2.5212765E+000
3.9844661E+000	-1.7924944E+000
3.6766303E+000	-1.1816874E+000
3.5649476E+000	-7.2078007E-001
3.5464630E+000	-3.9280489E-001
3.5713937E+000	-1.5673226E-001
3.6206958E+000	1.9178230E-002
3.6860309E+000	1.5952195E-001
3.7669401E+000	2.7291346E-001
3.8601859E+000	3.7708622E-001
3.9736063E+000	4.7512993E-001
4.0993586E+000	5.7418156E-001
4.2438302E+000	6.7915559E-001
4.3999066E+000	7.9521912E-001
4.5748854E+000	9.2632914E-001
4.7589426E+000	1.0922196E+000
4.9530067E+000	1.3107789E+000
5.1507201E+000	1.6019857E+000
5.3644814E+000	2.0248969E+000
5.5902524E+000	2.6300261E+000
5.8333111E+000	3.5091650E+000
6.1081553E+000	4.7770028E+000
6.4401679E+000	6.6288285E+000
6.8565040E+000	9.3158226E+000
7.4112301E+000	1.3171300E+001
8.2096682E+000	1.8769714E+001
9.3290424E+000	2.6801291E+001
1.0959696E+001	3.8308086E+001
1.3332648E+001	5.4752834E+001
1.6667683E+001	7.8241730E+001
2.1662289E+001	1.1167376E+002
2.8953766E+001	1.5964023E+002
3.9054001E+001	2.2772906E+002
5.3453499E+001	3.2503952E+002
7.3833763E+001	4.6451959E+002
1.0319013E+002	6.6427338E+002
1.4626309E+002	9.5354761E+002
2.1158087E+002	1.3701008E+003
3.1008112E+002	1.9680808E+003
4.6535373E+002	2.8492495E+003
7.1174908E+002	4.1123096E+003
1.0961863E+003	5.9284692E+003
1.7090928E+003	8.5713594E+003
2.6556162E+003	1.2418761E+004
4.1138945E+003	1.7962643E+004
6.1392041E+003	2.6285346E+004
9.6629023E+003	3.7954152E+004
1.5367257E+004	5.4856977E+004

Note: data/sample_1/1-12-2021_K2Mo6Te8_sample1_EIS_04_PEIS_C01.txt
Re(Z)/Ohm	-Im(Z)/Ohm	
4.1398125E+000	6.0863805E-001
4.3123040E+000	7.0744210E-001
4.4962802E+000	8.0714118E-001
4.6882086E+000	9.1557819E-001
4.8896523E+000	1.0481489E+000
5.0948153E+000	1.2184887E+000
5.3073487E+000	1.4530834E+000
5.5289054E+000	1.7824819E+000
5.7700677E+000	2.2585325E+000
6.0234132E+000	2.9372926E+000
6.3092937E+000	3.9247360E+000
6.6378713E+000	5.3540835E+000
7.0401917E+000	7.4320269E+000
7.5470262E+000	1.0439157E+001
8.2115612E+000	1.4768578E+001
9.1529226E+000	2.1046177E+001
1.0502952E+001	3.0025713E+001
1.2476717E+001	4.3008675E+001
1.5501978E+001	6.1528267E+001
1.9599924E+001	8.8251595E+001
2.5754614E+001	1.2656333E+002
3.5049046E+001	1.8184433E+002
4.9453766E+001	2.6074258E+002
6.9947678E+001	3.7498648E+002
1.0320543E+002	5.4045221E+002
1.5174408E+002	7.7881628E+002
2.2896935E+002	1.1185970E+003
3.5183716E+002	1.6108236E+003
5.4059717E+002	2.3237893E+003
7.9391046E+002	3.4093955E+003
1.2248184E+003	4.9467554E+003
1.8599144E+003	7.1264209E+003
2.8831152E+003	1.0229231E+004
4.3054873E+003	1.4602464E+004
6.8039028E+003	2.0993701E+004
1.0578021E+004	3.0179922E+004

Note: data/sample_1/1-12-2021_K2Mo6Te8_sample1_EIS_05_PEIS_C01.txt
Re(Z)/Ohm	-Im(Z)/Ohm	
4.0236707E+000	5.2866274E-001
4.1791048E+000	6.1989123E-001
4.3521557E+000	6.9929582E-001
4.5321617E+000	7.6624596E-001
4.7230864E+000	8.3553058E-001
4.9112129E+000	9.0651065E-001
5.0933456E+000	9.9983025E-001
5.2714553E+000	1.1261660E+000
5.4483490E+000	1.3171681E+000
5.6276741E+000	1.5938199E+000
5.8156414E+000	1.9981163E+000
6.0061893E+000	2.5801733E+000
6.2055531E+000	3.4264836E+000
6.4322214E+000	4.6568642E+000
6.6977167E+000	6.4462790E+000
7.0458984E+000	9.0360403E+000
7.5288458E+000	1.2748216E+001
8.2644253E+000	1.8102076E+001
9.4213467E+000	2.5752943E+001
1.1128470E+001	3.6504906E+001
1.4314858E+001	5.2033852E+001
1.9398972E+001	7.3719841E+001
2.7970226E+001	1.0363018E+002
4.2779140E+001	1.4479309E+002
6.8117111E+001	2.0047305E+002
1.1101905E+002	2.7030249E+002
1.8222075E+002	3.5597824E+002
2.8098331E+002	4.5171704E+002
4.2952673E+002	5.3404089E+002
6.1495367E+002	5.8154083E+002
8.1681549E+002	5.8508838E+002
1.0081962E+003	5.4649487E+002
1.1819120E+003	4.8985443E+002
1.3410646E+003	4.3937106E+002
1.4639147E+003	3.9212717E+002
1.5826898E+003	3.4272672E+002
1.6988927E+003	2.9113544E+002
1.8188872E+003	2.3678525E+002

Note: data/sample_1/1-12-2021_K2Mo6Te8_sample1_EIS_06_PEIS_C01.txt
Re(Z)/Ohm	-Im(Z)/Ohm	
4.0603709E+000	5.1837313E-001
4.2136626E+000	5.8331096E-001
4.3838544E+000	6.3098496E-001
4.5586610E+000	6.6043162E-001
4.7313161E+000	6.7977339E-001
4.8954511E+000	6.9147718E-001
5.0522461E+000	7.0906979E-001
5.1943736E+000	7.4640876E-001
5.3386064E+000	8.1201816E-001
5.4792619E+000	9.1502351E-001
5.6275110E+000	1.0697526E+000
5.7812033E+000	1.2983559E+000
5.9424710E+000	1.6111430E+000
6.1116810E+000	2.0710695E+000
6.2851777E+000	2.7389331E+000
6.4649901E+000	3.7146173E+000
6.6627965E+000	5.1592388E+000
6.9346952E+000	7.2942748E+000
7.3383112E+000	1.0386898E+001
7.9754868E+000	1.4911023E+001
9.3298244E+000	2.1430357E+001
1.1774853E+001	3.0684595E+001
1.6596128E+001	4.3551575E+001
2.5648548E+001	6.0583187E+001
4.2168442E+001	8.1261276E+001
6.9514221E+001	1.0195506E+002
1.0805177E+002	1.1576141E+002
1.5177933E+002	1.1573829E+002
1.9037326E+002	1.0177490E+002
2.1781044E+002	8.0940277E+001
2.3452968E+002	6.0312805E+001
2.4370331E+002	4.3208683E+001
2.4870811E+002	3.0155409E+001
2.5169054E+002	2.0837221E+001
2.5373886E+002	1.4533636E+001
2.5540439E+002	1.0001401E+001
2.5631897E+002	7.2209287E+000
2.5574037E+002	5.8161054E+000

Note: data/sample_1/1-12-2021_K2Mo6Te8_sample1_EIS_07_PEIS_C01.txt
Re(Z)/Ohm	-Im(Z)/Ohm	
4.0620446E+000	5.1237744E-001
4.2223969E+000	5.8036274E-001
4.3957300E+000	6.3110471E-001
4.5739942E+000	6.6330296E-001
4.7481904E+000	6.8017024E-001
4.9144506E+000	6.9924170E-001
5.0740123E+000	7.2306967E-001
5.2165427E+000	7.6140153E-001
5.3645821E+000	8.3028322E-001
5.5150132E+000	9.3676198E-001
5.6756935E+000	1.0888839E+000
5.8530717E+000	1.3160356E+000
6.0482850E+000	1.6252133E+000
6.2688589E+000	2.0629370E+000
6.5302019E+000	2.6901970E+000
6.8702612E+000	3.5874670E+000
7.3687563E+000	4.8666716E+000
8.2083998E+000	6.6455884E+000
9.6953421E+000	9.0021048E+000
1.2195104E+001	1.1700221E+001
1.6251995E+001	1.4366108E+001
2.1716345E+001	1.5862852E+001
2.7580786E+001	1.5371613E+001
3.2488171E+001	1.3155562E+001
3.5775723E+001	1.0247328E+001
3.7712894E+001	7.5336952E+000
3.8776810E+001	5.3659616E+000
3.9309814E+001	3.7551975E+000
3.9594280E+001	2.6026342E+000
3.9723728E+001	1.7812339E+000
3.9771671E+001	1.1877306E+000
3.9803593E+001	7.9733008E-001
3.9801201E+001	5.4451299E-001
3.9745434E+001	3.7918141E-001
3.9670937E+001	2.7345857E-001
3.9575977E+001	1.9871576E-001
3.9566338E+001	1.1926398E-001
3.9614212E+001	7.0728190E-002

Note: data/sample_1/1-12-2021_K2Mo6Te8_sample1_EIS_08_PEIS_C01.txt
Re(Z)/Ohm	-Im(Z)/Ohm	
4.0483580E+000	5.5211312E-001
4.2148628E+000	6.1699319E-001
4.3918772E+000	6.7017967E-001
4.5789895E+000	7.0445663E-001
4.7645488E+000	7.2890341E-001
4.9440384E+000	7.4969649E-001
5.1189437E+000	7.7658707E-001
5.2870541E+000	8.1709200E-001
5.4584036E+000	8.8682902E-001
5.6463990E+000	9.8953563E-001
5.8612413E+000	1.1256458E+000
6.1205916E+000	1.3032053E+000
6.4442163E+000	1.5212681E+000
6.8645029E+000	1.7611214E+000
7.4209666E+000	1.9717429E+000
8.0882597E+000	2.0690868E+000
8.7865801E+000	1.9665070E+000
9.3820763E+000	1.6935934E+000
9.8126450E+000	1.3360204E+000
1.0104634E+001	1.0146554E+000
1.0218783E+001	7.1188396E-001
1.0305952E+001	5.1240402E-001
1.0347263E+001	3.6382753E-001
1.0376256E+001	2.5990963E-001
1.0407804E+001	1.8616563E-001
1.0432644E+001	1.5552652E-001
1.0455035E+001	1.1064661E-001
1.0500789E+001	8.1499763E-002
1.0538568E+001	8.4916338E-002
1.0571351E+001	7.7820659E-002
1.0604168E+001	7.5394578E-002
1.0659807E+001	5.8954604E-002
1.0725121E+001	3.5736680E-002
1.0823990E+001	2.9011196E-002
1.0951372E+001	1.5182706E-002
1.1113822E+001	3.5842165E-002
1.1314080E+001	8.5989557E-002
1.1458154E+001	1.9333850E-001

Note: README.md
# velazquez_lab
Code for Jessica (and Velazquez Lab)

File: 1-12-2021_K2Mo6Te8_sample1_her_03_CV_C03.txt
Ewe/V	<I>/mA	cycle number
0.22607	-0.000238764	1
0.224301	-0.000566326	1
0.220956	-0.000972299	1
0.217623	-0.00124179	1
0.214297	-0.00151152	1
0.210914	-0.00171403	1
0.207613	-0.00188209	1
0.204288	-0.00204876	1
0.200933	-0.00225119	1
0.197617	-0.00239069	1
0.194327	-0.0025334	1
0.191025	-0.00269196	1
0.187621	-0.0028498	1
0.184303	-0.00300633	1
0.180956	-0.00314592	1
0.177688	-0.00329397	1
0.174278	-0.0034528	1
0.171014	-0.00360157	1
0.16764	-0.00375663	1
0.164366	-0.00391959	1
0.161011	-0.00406252	1
0.157646	-0.00423564	1
0.154368	-0.00437987	1
0.150995	-0.00453776	1
0.147669	-0.00469102	1
0.144364	-0.00485394	1
0.141061	-0.00498907	1
0.137738	-0.00514511	1
0.134406	-0.00528464	1
0.131005	-0.00540585	1
0.127954	-0.00555565	1
0.126468	-0.00547316	1
0.126361	-0.00806865	1
0.126801	-0.00533624	1
0.128609	-0.00403606	1
0.132013	-0.0030048	1
0.135335	-0.00239173	1
0.138718	-0.00192874	1
0.142014	-0.0015534	1
0.145357	-0.00124622	1
0.14871	-0.00101	1
0.152023	-0.000776944	1
0.155325	-0.000552621	1
0.158679	-0.000388337	1
0.162008	-0.000232482	1
0.16526	-6.29766e-05	1
0.168648	7.7187e-05	1
0.171962	0.000188248	1
0.175298	0.000287002	1
0.1786	0.000411458	1
0.181944	0.000505726	1
0.185253	0.000619087	1
0.188571	0.000716552	1
0.191935	0.000850239	1
0.195233	0.000962108	1
0.198584	0.00105796	1
0.201897	0.00116276	1
0.205237	0.00125942	1
0.208597	0.00134662	1
0.211888	0.00145614	1
0.215245	0.00158901	1
0.218646	0.00170248	1
0.221934	0.00182134	1
0.224946	0.00194625	1
0.226544	0.00529511	1
0.22629	0.00216948	1
0.224508	0.000947838	2
0.221181	0.000255122	2
0.217906	-0.000128447	2
0.214575	-0.000431362	2
0.211162	-0.000651687	2
0.207841	-0.000859406	2
0.204457	-0.0010365	2
0.201163	-0.00117961	2
0.197798	-0.00129971	2
0.194491	-0.00142952	2
0.191199	-0.00153626	2
0.187855	-0.00164181	2
0.184493	-0.00172752	2
0.18122	-0.00180603	2
0.177865	-0.00190909	2
0.17454	-0.00198934	2
0.171247	-0.00206812	2
0.167894	-0.0021626	2
0.16457	-0.00222012	2
0.161173	-0.00229779	2
0.157865	-0.00239433	2
0.154525	-0.00246619	2
0.151273	-0.00257242	2
0.147912	-0.0026685	2
0.144572	-0.00275728	2
0.141249	-0.00286438	2
0.137925	-0.00294037	2
0.13461	-0.00306298	2
0.131236	-0.00322536	2
0.128092	-0.00335175	2
0.12653	-0.00338696	2
0.128342	-0.00226945	2
0.13169	-0.00160268	2
0.135034	-0.00123367	2
0.13839	-0.000945562	2
0.141688	-0.000718407	2
0.144988	-0.000504623	2
0.148371	-0.000335284	2
0.151701	-0.000203377	2
0.154955	-7.08266e-05	2
0.158272	5.334e-05	2
0.161634	0.000147166	2
0.165002	0.000237762	2
0.168278	0.000329685	2
0.171657	0.00041705	2
0.174959	0.000506456	2
0.178281	0.000571361	2
0.181663	0.000671454	2
0.184923	0.000737587	2
0.188232	0.000840029	2
0.191566	0.000906387	2
0.194933	0.000986043	2
0.198255	0.00108427	2
0.201632	0.00117043	2
0.204927	0.00127097	2
0.208243	0.0013337	2
0.211612	0.00143569	2
0.214971	0.00155681	2
0.218223	0.00164637	2
0.221645	0.00175815	2
0.224748	0.00187584	2
0.22631	0.00599222	2

File: 1-12-2021_K2Mo6Te8_sample1_her_05_CV_C03.txt
Ewe/V	<I>/mA	cycle number
0.220682	8.7831e-05	1
0.218802	-0.00604428	1
0.2154	-0.00707618	1
0.21197	-0.00813188	1
0.208585	-0.00869126	1
0.205142	-0.00908279	1
0.201778	-0.0095966	1
0.198368	-0.0101667	1
0.19495	-0.0113147	1
0.191578	-0.011268	1
0.188171	-0.011637	1
0.184764	-0.0121216	1
0.181393	-0.0122942	1
0.177967	-0.0137327	1
0.174586	-0.0132711	1
0.171174	-0.0135356	1
0.167821	-0.0139431	1
0.164363	-0.0142575	1
0.161016	-0.0153742	1
0.157583	-0.0150923	1
0.154128	-0.0152328	1
0.150761	-0.0155783	1
0.147379	-0.0165446	1
0.14403	-0.0161837	1
0.140619	-0.0161742	1
0.137174	-0.016364	1
0.133809	-0.0164154	1
0.130357	-0.0175735	1
0.127614	-0.0168355	1
0.126536	-0.0148343	1
0.129121	-0.000221414	1
0.133973	0.00301296	1
0.138035	0.0072826	1
0.142112	0.00814037	1
0.147051	0.00960055	1
0.151253	0.00982583	1
0.154659	0.0110918	1
0.158003	0.0108702	1
0.16146	0.0109536	1
0.164852	0.0110623	1
0.168212	0.0112519	1
0.171615	0.0121074	1
0.175011	0.0115415	1
0.178465	0.0115934	1
0.181834	0.0116914	1
0.185273	0.0116817	1
0.188599	0.0125953	1
0.192037	0.0118795	1
0.195466	0.0117591	1
0.198845	0.0119723	1
0.202204	0.0118974	1
0.205583	0.0127563	1
0.208982	0.0121101	1
0.212407	0.0120997	1
0.215814	0.0122107	1
0.219278	0.0124503	1
0.222633	0.0130804	1
0.225394	0.0128486	1
0.226305	0.0211464	1
0.223689	-0.00163961	2
0.219478	-0.00289402	2
0.214322	-0.00642446	2
0.210949	-0.00768936	2
0.207563	-0.00782291	2
0.204159	-0.00830408	2
0.200692	-0.0089706	2
0.197323	-0.00982689	2
0.193924	-0.0102739	2
0.190525	-0.0106147	2
0.187132	-0.0110362	2
0.183717	-0.0115311	2
0.180324	-0.0124942	2
0.176918	-0.0124545	2
0.173545	-0.0126856	2
0.170151	-0.0131292	2
0.166784	-0.0134395	2
0.16336	-0.0148372	2
0.159991	-0.0141917	2
0.156581	-0.0144116	2
0.153143	-0.014818	2
0.149785	-0.0150412	2
0.14633	-0.0163984	2
0.142988	-0.0155577	2
0.139535	-0.0157831	2
0.136121	-0.0158684	2
0.132755	-0.0163043	2
0.129323	-0.0165954	2
0.127246	-0.0163362	2
0.126559	-0.0142053	2
0.129099	-8.27074e-05	2
0.133881	0.00415067	2
0.138013	0.00767918	2
0.141427	0.00857069	2
0.144766	0.00902349	2
0.148211	0.00961985	2
0.151577	0.00991141	2
0.15501	0.0110171	2
0.158439	0.0107575	2
0.161808	0.0109252	2
0.165209	0.0110621	2
0.168619	0.0110987	2
0.171991	0.0120216	2
0.175361	0.0115411	2
0.178736	0.0114961	2
0.182168	0.011552	2
0.185589	0.0116092	2
0.188976	0.0125935	2
0.192349	0.0117033	2
0.195783	0.0117567	2
0.199159	0.0118911	2
0.20257	0.0117218	2
0.205933	0.0124798	2
0.209351	0.0120705	2
0.212799	0.0121405	2
0.216176	0.012317	2
0.219614	0.0128533	2
0.222997	0.0127784	2
0.225436	0.0127808	2
0.22635	0.012474	2
0.226338	0.0154291	2

File: 1-12-2021_K2Mo6Te8_sample1_her_06_CV_C03.txt
Ewe/V	<I>/mA	cycle number
0.21447	-0.0185789	1
0.21258	-0.0249412	1
0.209166	-0.0258465	1
0.205762	-0.0266379	1
0.20235	-0.0276572	1
0.198951	-0.0306668	1
0.195488	-0.0295508	1
0.192163	-0.0300416	1
0.188763	-0.030668	1
0.185299	-0.0313328	1
0.181952	-0.0346236	1
0.178586	-0.0329489	1
0.175153	-0.0333947	1
0.171818	-0.0336719	1
0.168381	-0.0345107	1
0.164935	-0.0369162	1
0.161583	-0.0358813	1
0.158184	-0.0363682	1
0.154756	-0.0368042	1
0.151395	-0.0396805	1
0.147983	-0.0381237	1
0.144633	-0.0382037	1
0.141214	-0.0383357	1
0.137805	-0.0385741	1
0.134388	-0.0418209	1
0.130976	-0.039453	1
0.127961	-0.0392996	1
0.126591	-0.0320575	1
0.130057	0.00995591	1
0.135018	0.0163308	1
0.138443	0.0165894	1
0.141773	0.0180652	1
0.14523	0.0189184	1
0.148613	0.0217591	1
0.151989	0.0210664	1
0.15539	0.0215496	1
0.158816	0.0219855	1
0.163647	0.0268117	1
0.168424	0.0312532	1
0.171817	0.0313179	1
0.175184	0.0315589	1
0.178647	0.0341865	1
0.181993	0.0323124	1
0.185373	0.032285	1
0.188806	0.0322661	1
0.192209	0.0322556	1
0.195567	0.034684	1
0.199	0.0327514	1
0.202326	0.0325026	1
0.205789	0.0326111	1
0.209167	0.0326135	1
0.212619	0.0352854	1
0.216045	0.0333187	1
0.219433	0.0331428	1
0.222789	0.0332905	1
0.225371	0.0333608	1
0.226441	0.0360377	1
0.226319	0.0346396	2
0.22425	-0.0124336	2
0.220885	-0.0169792	2
0.216012	-0.0180711	2
0.211062	-0.0148995	2
0.207596	-0.0176972	2
0.204214	-0.0178295	2
0.200846	-0.0186582	2
0.197413	-0.019444	2
0.192484	-0.0257036	2
0.187524	-0.0300162	2
0.184136	-0.0306706	2
0.180702	-0.0313004	2
0.177261	-0.0348041	2
0.173944	-0.0328125	2
0.170487	-0.0334205	2
0.16707	-0.0341711	2
0.163686	-0.0358304	2
0.160341	-0.0356787	2
0.156891	-0.0360495	2
0.153511	-0.0363852	2
0.150123	-0.0366508	2
0.146776	-0.039812	2
0.143338	-0.0380824	2
0.139897	-0.038014	2
0.136517	-0.0382511	2
0.133127	-0.0382926	2
0.129684	-0.0417412	2
0.127138	-0.0390322	2
0.126282	-0.0436149	2
0.128328	0.0114796	2
0.133172	0.0169998	2
0.138164	0.0163647	2
0.141527	0.0178867	2
0.146476	0.0257154	2
0.151476	0.0286522	2
0.154837	0.0294798	2
0.158248	0.0300004	2
0.161689	0.0330084	2
0.165032	0.0309331	2
0.168473	0.0312312	2
0.171881	0.0312127	2
0.175279	0.0316087	2
0.178633	0.0345751	2
0.182043	0.0320731	2
0.185442	0.0322865	2
0.188833	0.0320464	2
0.192235	0.0322183	2
0.195639	0.0349465	2
0.199019	0.0324632	2
0.20241	0.0326008	2
0.205888	0.0325343	2
0.209237	0.0336993	2
0.212639	0.0331411	2
0.216047	0.0332175	2
0.219442	0.0330938	2
0.222866	0.0333473	2
0.225375	0.0334655	2
0.226371	0.0363858	2
0.226156	0.0402254	2

File: 1-12-2021_K2Mo6Te8_sample1_her_10_LSV_C03.txt
Ewe/V	<I>/mA
0.210219	0.000000000000000E+000
0.21002	0.000000000000000E+000
-0.100767	0.545229
-0.102815	0.134254
-0.1064	-0.000952262
-0.109918	-0.00916617
-0.113259	-0.0116595
-0.116567	-0.0127396
-0.119909	-0.0132809
-0.123293	-0.0136554
-0.126577	-0.0139384
-0.12991	-0.0141495
-0.133258	-0.0143155
-0.13661	-0.014497
-0.139957	-0.0146067
-0.143267	-0.0148145
-0.146589	-0.0150681
-0.149869	-0.0151777
-0.153248	-0.0153557
-0.15657	-0.0156123
-0.159919	-0.0158519
-0.163246	-0.0162162
-0.166585	-0.0165604
-0.169889	-0.0168957
-0.173235	-0.0172494
-0.176565	-0.0176694
-0.179917	-0.018055
-0.18318	-0.0184796
-0.186566	-0.0189141
-0.189868	-0.0194089
-0.193164	-0.0199457
-0.196512	-0.0204421
-0.199826	-0.0209288
-0.203121	-0.0214799
-0.206458	-0.0220535
-0.209789	-0.0227252
-0.213202	-0.0233993
-0.216463	-0.0240735
-0.219825	-0.0247864
-0.223205	-0.0255789
-0.226506	-0.0263151
-0.22987	-0.0270808
-0.233169	-0.0279203
-0.236496	-0.0287485
-0.239812	-0.0296112
-0.24321	-0.0305737
-0.246428	-0.0314752
-0.249801	-0.0325722
-0.253127	-0.0337116
-0.256445	-0.0349039
-0.259749	-0.036286
-0.263078	-0.0377
-0.266435	-0.039375
-0.269791	-0.040924
-0.273081	-0.0423646
-0.276477	-0.0437522
-0.279793	-0.0452337
-0.283091	-0.0468156
-0.286395	-0.0484183
-0.289756	-0.0500928
-0.293086	-0.051763
-0.296427	-0.0534155
-0.299767	-0.0550641
-0.303083	-0.0568538
-0.30644	-0.0587248
-0.309796	-0.0605989
-0.313144	-0.0624834
-0.316477	-0.0645754
-0.3198	-0.0667508
-0.323097	-0.0692146
-0.326409	-0.0715631
-0.329768	-0.074079
-0.333034	-0.0768407
-0.3364	-0.0792464
-0.339741	-0.0816371
-0.343044	-0.0843722
-0.346387	-0.087022
-0.349739	-0.089727
-0.353038	-0.0925362
-0.356419	-0.0956016
-0.359698	-0.0991568
-0.363011	-0.102609
-0.366375	-0.10596
-0.369646	-0.109486
-0.373022	-0.113067
-0.376375	-0.116907
-0.37965	-0.121053
-0.383029	-0.125474
-0.38635	-0.130475
-0.389736	-0.135433
-0.393034	-0.140587
-0.396352	-0.146075
-0.399728	-0.151898
-0.402982	-0.157851
-0.406351	-0.164108
-0.409695	-0.170883
-0.412997	-0.178044
-0.416332	-0.185956
-0.419637	-0.194058
-0.423001	-0.202351
-0.426361	-0.211277
-0.429682	-0.221
-0.432974	-0.23144
-0.43632	-0.242667
-0.43962	-0.255018
-0.442935	-0.269361
-0.446279	-0.284396
-0.44962	-0.300867
-0.45289	-0.31788
-0.4563	-0.336323
-0.459655	-0.359832
-0.462969	-0.382161
-0.466295	-0.405912
-0.469633	-0.433369
-0.472923	-0.462076
-0.476231	-0.492813
-0.479595	-0.53104
-0.482956	-0.568584
-0.486227	-0.614064
-0.489579	-0.659406
-0.492947	-0.710512
-0.496289	-0.764798
-0.499585	-0.82462
-0.502939	-0.890935
-0.506246	-0.963247
-0.509539	-1.0419
-0.512937	-1.12994
-0.516148	-1.22517
-0.519537	-1.33098
-0.522862	-1.44783
-0.526201	-1.57159
-0.52951	-1.70916
-0.532851	-1.85592
-0.536201	-2.01473
-0.539498	-2.18504
-0.542889	-2.36936
-0.546179	-2.56697
-0.549502	-2.77619
-0.552865	-2.9956
-0.55616	-3.23053
-0.559507	-3.48441
-0.562862	-3.73993
-0.566145	-4.01983
-0.569514	-4.30441
-0.572827	-4.60637
-0.576184	-4.92133
-0.57949	-5.25034
-0.582797	-5.58539
-0.586151	-5.95451
-0.589474	-6.31219
-0.592776	-6.67834
-0.596096	-7.05349
-0.599428	-7.45357
-0.602845	-7.87826
-0.606106	-8.30684
-0.609441	-8.77557
-0.612754	-9.22954
-0.616098	-9.7072
-0.619598	-10.2153
-0.623204	-10.7281
-0.626424	-11.2514
-0.629793	-11.8199
-0.633113	-12.3515
-0.636443	-12.9044
-0.639807	-13.5037
-0.643097	-14.208
-0.646394	-14.7962
-0.649818	-15.3898
-0.653101	-15.9715
-0.656418	-16.588
-0.659867	-17.2076
-0.663183	-17.8377
-0.666436	-18.468
-0.669735	-19.1038
-0.673156	-19.7565
-0.676417	-20.4213
-0.679858	-21.1031
-0.683057	-21.7654
-0.686473	-22.4923
-0.689754	-23.1978
-0.693023	-23.9123
-0.696365	-24.6011
-0.698891	-25.1166
-0.700125	-25.3183